Block_ID,Trial_ID,Condition,Assigned_Delay_ms,Actual_Delay_ms,Timing_Error_ms,Button_Pressed,Response,Reaction_Time_ms,Response_Classification,EMG_Onset_Detected,Flip_Executed,Accuracy,flip_time_ms,button_time_ms,onset_time_ms,scoring_reason
0,0,control,n/a,No_Flip,n/a,F,,,No_Response,F,F,,,,,no_response
0,1,control,n/a,No_Flip,n/a,T,right,1.4191743000001225,Button_Before_Flip,F,F,True,,516.7829990386963,,correct_response_before_flip_or_control_trial
0,2,control,n/a,No_Flip,n/a,F,,,No_Response,F,F,,,,,no_response
0,3,delay_200,200.0,266.89839363098145,66.89839363098145,F,,,No_Response,T,T,,266.89839363098145,,,no_response
0,4,control,n/a,No_Flip,n/a,T,left,0.9148970000005648,Button_Before_Flip,F,F,True,,914.614200592041,,correct_response_before_flip_or_control_trial
0,5,control,n/a,No_Flip,n/a,F,,,No_Response,F,F,,,,,no_response
0,6,delay_150,150.0,283.88071060180664,133.88071060180664,T,right,1.3421323000002303,Button_After_Flip,T,T,False,283.88071060180664,1341.4340019226074,,incorrect_response_after_flip_to_zero_coherence
0,7,control,n/a,No_Flip,n/a,T,left,0.9138865000004444,Button_Before_Flip,F,F,True,,913.6147499084472,,correct_response_before_flip_or_control_trial
0,8,delay_100,100.0,134.94348526000977,34.943485260009766,T,right,1.166945399999349,Button_After_Flip,T,T,False,134.94348526000977,1166.5074825286863,,incorrect_response_after_flip_to_zero_coherence
0,9,delay_50,50.0,134.94586944580078,84.94586944580078,F,,,No_Response,T,T,,134.94586944580078,,,no_response
0,10,delay_100,100.0,136.94167137145996,36.94167137145996,F,,,No_Response,T,T,,136.94167137145996,,,no_response
0,11,control,n/a,No_Flip,n/a,F,,,No_Response,F,F,,,,,no_response
0,12,delay_0,0.0,6.996870040893555,6.996870040893555,F,,,No_Response,T,T,,6.996870040893555,,,no_response
0,13,control,n/a,No_Flip,n/a,T,right,1.3076994000002742,Button_Before_Flip,F,F,True,,261.890172958374,,correct_response_before_flip_or_control_trial
0,14,delay_100,100.0,136.94262504577637,36.94262504577637,T,left,1.3077504999992016,Button_After_Flip,T,T,False,136.94262504577637,533.7755680084229,,incorrect_response_after_flip_to_zero_coherence
0,15,control,n/a,No_Flip,n/a,T,right,1.2957918000001882,Button_Before_Flip,F,F,True,,261.8896961212158,,correct_response_before_flip_or_control_trial
0,16,control,n/a,No_Flip,n/a,T,right,1.3000733999997465,Button_Before_Flip,F,F,True,,131.9444179534912,,correct_response_before_flip_or_control_trial
0,17,control,n/a,No_Flip,n/a,T,left,1.1765975999996954,Button_Before_Flip,F,F,True,,132.94434547424316,,correct_response_before_flip_or_control_trial
0,18,delay_250,250.0,265.8886909484863,15.888690948486328,T,right,1.4346465999997235,Button_After_Flip,T,T,False,265.8886909484863,395.83373069763184,,incorrect_response_after_flip_to_zero_coherence
0,19,control,n/a,No_Flip,n/a,F,,,No_Response,F,F,,,,,no_response
0,20,delay_150,150.0,277.88376808166504,127.88376808166504,T,left,1.3095980999996757,Button_Before_Flip,T,T,True,277.88376808166504,273.88501167297363,,correct_response_before_flip_or_control_trial
0,21,delay_0,0.0,No_Flip,n/a,F,,,No_Response,F,F,,,,,no_response
0,22,control,n/a,No_Flip,n/a,F,,,No_Response,F,F,,,,,no_response
0,23,delay_150,150.0,264.890193939209,114.89019393920898,T,right,1.4346340000001874,Button_After_Flip,T,T,False,264.890193939209,1434.3972206115725,,incorrect_response_after_flip_to_zero_coherence
0,24,delay_200,200.0,267.88949966430664,67.88949966430664,T,left,1.315625799999907,Button_After_Flip,T,T,False,267.88949966430664,1315.4470920562744,,incorrect_response_after_flip_to_zero_coherence
0,25,delay_250,250.0,266.887903213501,16.887903213500977,T,left,1.0486479000001054,Button_After_Flip,T,T,False,266.887903213501,1048.5591888427734,,incorrect_response_after_flip_to_zero_coherence
0,26,delay_0,0.0,6.997108459472656,6.997108459472656,F,,,No_Response,T,T,,6.997108459472656,,,no_response
0,27,delay_50,50.0,138.12875747680664,88.12875747680664,T,right,1.2985489000002417,Button_Before_Flip,T,T,True,138.12875747680664,134.93990898132324,,correct_response_before_flip_or_control_trial
0,28,control,n/a,No_Flip,n/a,T,right,1.052463699999862,Button_Before_Flip,F,F,True,,134.93943214416504,,correct_response_before_flip_or_control_trial
0,29,control,n/a,No_Flip,n/a,T,left,1.1675130000003264,Button_Before_Flip,F,F,True,,262.880802154541,,correct_response_before_flip_or_control_trial
0,30,control,n/a,No_Flip,n/a,F,,,No_Response,F,F,,,,,no_response
0,31,delay_50,50.0,136.94047927856445,86.94047927856445,T,right,1.4399219999995694,Button_Before_Flip,T,T,True,136.94047927856445,132.94029235839844,,correct_response_before_flip_or_control_trial
0,32,delay_200,200.0,267.880916595459,67.88091659545898,T,left,1.309527899999921,Button_After_Flip,T,T,False,267.880916595459,400.8181095123291,,incorrect_response_after_flip_to_zero_coherence
0,33,control,n/a,No_Flip,n/a,T,left,1.1746907999995528,Button_Before_Flip,F,F,True,,133.93831253051758,,correct_response_before_flip_or_control_trial
0,34,control,n/a,No_Flip,n/a,F,,,No_Response,F,F,,,,,no_response
0,35,control,n/a,No_Flip,n/a,T,right,0.9343755999998392,Button_Before_Flip,F,F,True,,933.5768222808838,,correct_response_before_flip_or_control_trial
0,36,control,n/a,No_Flip,n/a,T,right,1.0771200999997743,Button_Before_Flip,F,F,True,,1076.5111446380615,,correct_response_before_flip_or_control_trial
0,37,delay_250,250.0,261.8718147277832,11.871814727783203,F,,,No_Response,T,T,,261.8718147277832,,,no_response
0,38,delay_0,0.0,5.998134613037109,5.998134613037109,F,,,No_Response,T,T,,5.998134613037109,,,no_response
0,39,delay_50,50.0,172.0590591430664,122.0590591430664,F,,,No_Response,T,T,,172.0590591430664,,,no_response
1,0,delay_200,200.0,267.8823471069336,67.8823471069336,T,left,1.2998565999996572,Button_Before_Flip,T,T,True,267.8823471069336,264.8792266845703,,correct_response_before_flip_or_control_trial
1,1,delay_250,250.0,No_Flip,n/a,F,,,No_Response,F,F,,,,,no_response
1,2,control,n/a,No_Flip,n/a,T,right,1.1020449999996345,Button_Before_Flip,F,F,True,,131.93941116333008,,correct_response_before_flip_or_control_trial
1,3,delay_50,50.0,No_Flip,n/a,F,,,No_Response,F,F,,,,,no_response
1,4,delay_200,200.0,No_Flip,n/a,F,,,No_Response,F,F,,,,,no_response
1,5,delay_50,50.0,139.937162399292,89.93716239929199,T,right,0.9081833000000188,Button_Before_Flip,T,T,True,139.937162399292,134.9387168884277,,correct_response_before_flip_or_control_trial
1,6,delay_250,250.0,267.878532409668,17.87853240966797,T,right,1.050795800000742,Button_Before_Flip,T,F,True,267.878532409668,135.9386444091797,,correct_response_before_flip_or_control_trial
1,7,control,n/a,No_Flip,n/a,F,,,No_Response,F,F,,,,,no_response
1,8,delay_150,150.0,271.8768119812012,121.87681198120116,T,right,1.4348506000005727,Button_Before_Flip,T,F,True,271.8768119812012,133.9395046234131,,correct_response_before_flip_or_control_trial
1,9,control,n/a,No_Flip,n/a,T,left,0.9113148000005822,Button_Before_Flip,F,F,True,,132.93981552124023,,correct_response_before_flip_or_control_trial
1,10,control,n/a,No_Flip,n/a,F,,,No_Response,F,F,,,,,no_response
1,11,delay_0,0.0,6.997346878051758,6.997346878051758,T,right,1.1789921999998114,Button_After_Flip,T,T,False,6.997346878051758,137.9377841949463,,incorrect_response_after_flip_to_zero_coherence
1,12,control,n/a,No_Flip,n/a,T,left,1.038055300000451,Button_Before_Flip,F,F,True,,264.8797035217285,,correct_response_before_flip_or_control_trial
1,13,delay_150,150.0,No_Flip,n/a,F,,,No_Response,T,F,,,,,no_response
1,14,control,n/a,No_Flip,n/a,F,,,No_Response,F,F,,,,,no_response
1,15,delay_200,200.0,267.87877082824707,67.87877082824707,F,,,No_Response,T,T,,267.87877082824707,,,no_response
1,16,delay_50,50.0,137.9380226135254,87.93802261352539,T,right,1.3059041999995316,Button_Before_Flip,T,T,True,137.9380226135254,133.93926620483398,,correct_response_before_flip_or_control_trial
1,17,control,n/a,No_Flip,n/a,T,left,1.1640526000001046,Button_Before_Flip,F,F,True,,131.93988800048828,,correct_response_before_flip_or_control_trial
1,18,control,n/a,No_Flip,n/a,T,right,1.1752606999998534,Button_Before_Flip,F,F,True,,132.94005393981934,,correct_response_before_flip_or_control_trial
1,19,delay_0,0.0,6.99925422668457,6.99925422668457,T,left,1.288675599999806,Button_After_Flip,T,T,False,6.99925422668457,138.93723487854004,,incorrect_response_after_flip_to_zero_coherence
1,20,delay_0,0.0,No_Flip,n/a,F,,,No_Response,F,F,,,,,no_response
1,21,control,n/a,No_Flip,n/a,F,,,No_Response,F,F,,,,,no_response
1,22,delay_50,50.0,134.93990898132324,84.93990898132324,F,,,No_Response,T,T,,134.93990898132324,,,no_response
1,23,control,n/a,No_Flip,n/a,T,left,1.43952039999931,Button_Before_Flip,F,F,True,,133.93926620483398,,correct_response_before_flip_or_control_trial
1,24,delay_100,100.0,136.94071769714355,36.94071769714356,T,right,1.43619149999995,Button_Before_Flip,T,T,True,136.94071769714355,132.93981552124023,,correct_response_before_flip_or_control_trial
1,25,delay_100,100.0,136.94024085998535,36.94024085998535,T,left,1.1641318000001777,Button_Before_Flip,T,T,True,136.94024085998535,132.93957710266113,,correct_response_before_flip_or_control_trial
1,26,delay_0,0.0,5.99980354309082,5.99980354309082,T,left,1.3052934999996069,Button_After_Flip,T,T,False,5.99980354309082,137.9375457763672,,incorrect_response_after_flip_to_zero_coherence
1,27,control,n/a,No_Flip,n/a,F,,,No_Response,F,F,,,,,no_response
1,28,control,n/a,No_Flip,n/a,F,,,No_Response,F,F,,,,,no_response
1,29,control,n/a,No_Flip,n/a,T,left,1.025901799999701,Button_Before_Flip,F,F,True,,130.94067573547363,,correct_response_before_flip_or_control_trial
1,30,delay_250,250.0,264.8801803588867,14.88018035888672,T,right,1.167710400000033,Button_Before_Flip,T,F,True,264.8801803588867,132.93957710266113,,correct_response_before_flip_or_control_trial
1,31,control,n/a,No_Flip,n/a,F,,,No_Response,F,F,,,,,no_response
1,32,control,n/a,No_Flip,n/a,F,,,No_Response,F,F,,,,,no_response
1,33,control,n/a,No_Flip,n/a,F,,,No_Response,F,F,,,,,no_response
1,34,control,n/a,No_Flip,n/a,F,,,No_Response,F,F,,,,,no_response
1,35,control,n/a,No_Flip,n/a,T,left,0.7854415000001609,Button_Before_Flip,F,F,True,,132.93957710266113,,correct_response_before_flip_or_control_trial
1,36,delay_150,150.0,266.8900489807129,116.89004898071288,T,left,1.0599412000001394,Button_Before_Flip,T,F,True,266.8900489807129,133.9395046234131,,correct_response_before_flip_or_control_trial
1,37,delay_100,100.0,No_Flip,n/a,F,,,No_Response,F,F,,,,,no_response
1,38,control,n/a,No_Flip,n/a,T,left,1.4262182000002213,Button_Before_Flip,F,F,True,,1426.351547241211,,correct_response_before_flip_or_control_trial
1,39,control,n/a,No_Flip,n/a,T,left,1.428179999999884,Button_Before_Flip,F,F,True,,1427.3529052734375,,correct_response_before_flip_or_control_trial
2,0,delay_50,50.0,137.93325424194336,87.93325424194336,F,,,No_Response,T,T,,137.93325424194336,,,no_response
2,1,control,n/a,No_Flip,n/a,F,,,No_Response,F,F,,,,,no_response
2,2,delay_150,150.0,266.8755054473877,116.8755054473877,T,left,1.1706651000004058,Button_Before_Flip,T,F,True,266.8755054473877,133.93735885620117,,correct_response_before_flip_or_control_trial
2,3,control,n/a,No_Flip,n/a,T,right,1.0415227000003142,Button_Before_Flip,F,F,True,,133.93735885620117,,correct_response_before_flip_or_control_trial
2,4,control,n/a,No_Flip,n/a,T,left,0.9135806000003868,Button_Before_Flip,F,F,True,,132.93790817260742,,correct_response_before_flip_or_control_trial
2,5,delay_0,0.0,5.999088287353516,5.999088287353516,T,right,1.1796944999996413,Button_After_Flip,T,T,False,5.999088287353516,138.93413543701172,,incorrect_response_after_flip_to_zero_coherence
2,6,control,n/a,No_Flip,n/a,F,,,No_Response,F,F,,,,,no_response
2,7,control,n/a,No_Flip,n/a,T,left,1.1754204999997455,Button_Before_Flip,F,F,True,,136.93761825561523,,correct_response_before_flip_or_control_trial
2,8,delay_50,50.0,140.93399047851562,90.93399047851562,T,left,1.4327063000000635,Button_Before_Flip,T,T,True,140.93399047851562,136.93594932556152,,correct_response_before_flip_or_control_trial
2,9,delay_250,250.0,281.86893463134766,31.868934631347656,T,left,1.4480696999999054,Button_Before_Flip,T,T,True,281.86893463134766,276.8707275390625,,correct_response_before_flip_or_control_trial
2,10,control,n/a,No_Flip,n/a,T,right,1.4370885999996972,Button_Before_Flip,F,F,True,,132.93766975402832,,correct_response_before_flip_or_control_trial
2,11,delay_50,50.0,139.93501663208008,89.93501663208008,T,left,1.1692510000002585,Button_Before_Flip,T,T,True,139.93501663208008,134.93657112121582,,correct_response_before_flip_or_control_trial
2,12,control,n/a,No_Flip,n/a,T,left,1.0439550999999485,Button_Before_Flip,F,F,True,,133.93759727478027,,correct_response_before_flip_or_control_trial
2,13,control,n/a,No_Flip,n/a,T,left,1.4322004000005109,Button_Before_Flip,F,F,True,,134.93704795837402,,correct_response_before_flip_or_control_trial
2,14,control,n/a,No_Flip,n/a,T,right,1.4359250000006796,Button_Before_Flip,F,F,True,,390.8178806304932,,correct_response_before_flip_or_control_trial
2,15,control,n/a,No_Flip,n/a,T,left,1.4312737000000195,Button_Before_Flip,F,F,True,,401.8118381500244,,correct_response_before_flip_or_control_trial
2,16,delay_200,200.0,No_Flip,n/a,F,,,No_Response,F,F,,,,,no_response
2,17,control,n/a,No_Flip,n/a,F,,,No_Response,F,F,,,,,no_response
2,18,delay_250,250.0,No_Flip,n/a,F,,,No_Response,F,F,,,,,no_response
2,19,delay_100,100.0,No_Flip,n/a,F,,,No_Response,F,F,,,,,no_response
2,20,delay_0,0.0,6.994962692260742,6.994962692260742,F,,,No_Response,T,T,,6.994962692260742,,,no_response
2,21,control,n/a,No_Flip,n/a,T,left,1.342313500000273,Button_Before_Flip,F,F,True,,137.93563842773438,,correct_response_before_flip_or_control_trial
2,22,delay_0,0.0,7.9975128173828125,7.9975128173828125,T,right,1.3434738000005382,Button_After_Flip,T,T,False,7.9975128173828125,144.93227005004883,,incorrect_response_after_flip_to_zero_coherence
2,23,delay_200,200.0,No_Flip,n/a,F,,,No_Response,T,F,,,,,no_response
2,24,delay_0,0.0,5.000829696655273,5.000829696655273,T,right,1.0441691000005449,Button_After_Flip,T,T,False,5.000829696655273,140.93422889709473,,incorrect_response_after_flip_to_zero_coherence
2,25,control,n/a,No_Flip,n/a,T,left,0.920881200000622,Button_Before_Flip,F,F,True,,144.93227005004883,,correct_response_before_flip_or_control_trial
2,26,delay_250,250.0,268.8779830932617,18.87798309326172,F,,,No_Response,T,T,,268.8779830932617,,,no_response
2,27,delay_100,100.0,132.94053077697754,32.94053077697754,T,right,0.902825899999698,Button_Before_Flip,T,T,True,132.94053077697754,129.93955612182617,,correct_response_before_flip_or_control_trial
2,28,control,n/a,No_Flip,n/a,T,left,0.9346815999997488,Button_Before_Flip,F,F,True,,137.93611526489258,,correct_response_before_flip_or_control_trial
2,29,control,n/a,No_Flip,n/a,F,,,No_Response,F,F,,,,,no_response
2,30,delay_150,150.0,276.8709659576416,126.8709659576416,T,right,1.3708043999995423,Button_Before_Flip,T,F,True,276.8709659576416,138.93389701843262,,correct_response_before_flip_or_control_trial
2,31,delay_150,150.0,275.87199211120605,125.87199211120604,T,right,1.3401358000000982,Button_Before_Flip,T,F,True,275.87199211120605,136.93499565124512,,correct_response_before_flip_or_control_trial
2,32,control,n/a,No_Flip,n/a,F,,,No_Response,F,F,,,,,no_response
2,33,control,n/a,No_Flip,n/a,T,left,1.0786385000001246,Button_Before_Flip,F,F,True,,138.93532752990723,,correct_response_before_flip_or_control_trial
2,34,delay_50,50.0,141.9351100921631,91.93511009216309,T,right,1.2051844000006895,Button_Before_Flip,T,T,True,141.9351100921631,137.93540000915527,,correct_response_before_flip_or_control_trial
2,35,control,n/a,No_Flip,n/a,T,left,0.9384712999999464,Button_Before_Flip,F,F,True,,269.8748111724853,,correct_response_before_flip_or_control_trial
2,36,delay_200,200.0,No_Flip,n/a,F,,,No_Response,F,F,,,,,no_response
2,37,delay_100,100.0,141.9370174407959,41.9370174407959,T,left,1.0787743999999293,Button_Before_Flip,T,T,True,141.9370174407959,138.93580436706543,,correct_response_before_flip_or_control_trial
2,38,control,n/a,No_Flip,n/a,F,,,No_Response,F,F,,,,,no_response
2,39,control,n/a,No_Flip,n/a,T,right,1.0834980999998152,Button_Before_Flip,F,F,True,,137.9234790802002,,correct_response_before_flip_or_control_trial
3,0,delay_100,100.0,138.94009590148926,38.94009590148926,F,,,No_Response,T,T,,138.94009590148926,,,no_response
3,1,delay_150,150.0,276.8807411193848,126.88074111938477,T,right,1.0838512000000264,Button_Before_Flip,T,F,True,276.8807411193848,137.939453125,,correct_response_before_flip_or_control_trial
3,2,delay_200,200.0,200.913667678833,0.9136676788330078,F,,,No_Response,T,T,,200.913667678833,,,no_response
3,3,delay_0,0.0,5.998849868774414,5.998849868774414,T,left,1.1029892999995354,Button_After_Flip,T,T,False,5.998849868774414,141.9377326965332,,incorrect_response_after_flip_to_zero_coherence
3,4,control,n/a,No_Flip,n/a,T,right,0.6804074000001492,Button_Before_Flip,F,F,False,,138.94057273864746,,incorrect_response_before_flip_or_control_trial
3,5,control,n/a,No_Flip,n/a,T,left,1.4781459999994695,Button_Before_Flip,F,F,True,,137.9411220550537,,correct_response_before_flip_or_control_trial
3,6,control,n/a,No_Flip,n/a,T,left,1.07267580000007,Button_Before_Flip,F,F,True,,138.94009590148926,,correct_response_before_flip_or_control_trial
3,7,control,n/a,No_Flip,n/a,T,right,1.0727218000001812,Button_Before_Flip,F,F,True,,3.996610641479492,,correct_response_before_flip_or_control_trial
3,8,delay_250,250.0,No_Flip,n/a,F,,,No_Response,T,F,,,,,no_response
3,9,control,n/a,No_Flip,n/a,T,left,1.211580899999717,Button_Before_Flip,F,F,True,,4.9991607666015625,,correct_response_before_flip_or_control_trial
3,10,delay_200,200.0,No_Flip,n/a,F,,,No_Response,F,F,,,,,no_response
3,11,control,n/a,No_Flip,n/a,F,,,No_Response,F,F,,,,,no_response
3,12,control,n/a,No_Flip,n/a,T,right,0.9396913999999016,Button_Before_Flip,F,F,True,,135.941743850708,,correct_response_before_flip_or_control_trial
3,13,delay_150,150.0,150.93517303466797,0.9351730346679688,T,right,0.938760199999706,Button_Before_Flip,T,F,True,150.93517303466797,3.999948501586914,,correct_response_before_flip_or_control_trial
3,14,control,n/a,No_Flip,n/a,T,left,1.4332899999999429,Button_Before_Flip,F,F,True,,275.8817672729492,,correct_response_before_flip_or_control_trial
3,15,delay_50,50.0,140.93971252441406,90.93971252441406,T,left,1.343522000000121,Button_Before_Flip,T,F,True,140.93971252441406,3.000497817993164,,correct_response_before_flip_or_control_trial
3,16,delay_0,0.0,7.995128631591797,7.995128631591797,T,right,1.2105922000000646,Button_Before_Flip,T,T,True,7.995128631591797,3.999710083007813,,correct_response_before_flip_or_control_trial
3,17,delay_100,100.0,143.94068717956543,43.94068717956543,T,left,1.209179000000404,Button_Before_Flip,T,T,True,143.94068717956543,139.9397850036621,,correct_response_before_flip_or_control_trial
3,18,delay_0,0.0,6.000280380249023,6.000280380249023,T,left,0.81181849999939,Button_After_Flip,T,T,False,6.000280380249023,142.94004440307617,,incorrect_response_after_flip_to_zero_coherence
3,19,control,n/a,No_Flip,n/a,F,,,No_Response,F,F,,,,,no_response
3,20,delay_200,200.0,No_Flip,n/a,T,right,1.0739019000002372,Button_Before_Flip,T,F,True,,3.0002593994140625,,correct_response_before_flip_or_control_trial
3,21,control,n/a,No_Flip,n/a,T,right,1.4872003000000404,Button_Before_Flip,F,F,True,,138.94104957580566,,correct_response_before_flip_or_control_trial
3,22,control,n/a,No_Flip,n/a,T,left,0.8077155999999377,Button_Before_Flip,F,F,True,,136.94095611572266,,correct_response_before_flip_or_control_trial
3,23,control,n/a,No_Flip,n/a,T,right,0.935792900000706,Button_Before_Flip,F,F,True,,135.9415054321289,,correct_response_before_flip_or_control_trial
3,24,control,n/a,No_Flip,n/a,T,left,0.811795799999345,Button_Before_Flip,F,F,True,,3.0007362365722656,,correct_response_before_flip_or_control_trial
3,25,control,n/a,No_Flip,n/a,T,left,1.080155200000263,Button_Before_Flip,F,F,True,,677.7093410491943,,correct_response_before_flip_or_control_trial
3,26,delay_50,50.0,138.94224166870117,88.94224166870117,T,right,1.348244899999372,Button_After_Flip,T,T,False,138.94224166870117,275.8817672729492,,incorrect_response_after_flip_to_zero_coherence
3,27,delay_250,250.0,274.8842239379883,24.88422393798828,T,left,1.4821468999998615,Button_After_Flip,T,T,False,274.8842239379883,941.596508026123,,incorrect_response_after_flip_to_zero_coherence
3,28,delay_0,0.0,5.999088287353516,5.999088287353516,T,right,1.3461563000000751,Button_After_Flip,T,T,False,5.999088287353516,141.9391632080078,,incorrect_response_after_flip_to_zero_coherence
3,29,delay_150,150.0,276.88121795654297,126.88121795654295,T,left,1.0750495000002047,Button_Before_Flip,T,F,True,276.88121795654297,137.9411220550537,,correct_response_before_flip_or_control_trial
3,30,control,n/a,No_Flip,n/a,T,right,1.4833072000001266,Button_Before_Flip,F,F,True,,275.8817672729492,,correct_response_before_flip_or_control_trial
3,31,control,n/a,No_Flip,n/a,F,,,No_Response,F,F,,,,,no_response
3,32,control,n/a,No_Flip,n/a,F,,,No_Response,F,F,,,,,no_response
3,33,delay_50,50.0,No_Flip,n/a,F,,,No_Response,F,F,,,,,no_response
3,34,control,n/a,No_Flip,n/a,F,,,No_Response,F,F,,,,,no_response
3,35,control,n/a,No_Flip,n/a,F,,,No_Response,F,F,,,,,no_response
3,36,delay_50,50.0,159.97743606567383,109.97743606567384,T,right,0.920159500000409,Button_Before_Flip,T,F,True,159.97743606567383,3.0260086059570312,,correct_response_before_flip_or_control_trial
3,37,delay_250,250.0,263.8866901397705,13.886690139770508,F,,,No_Response,T,T,,263.8866901397705,,,no_response
3,38,delay_100,100.0,137.93325424194336,37.93325424194336,T,right,1.1845663000003697,Button_After_Flip,T,T,False,137.93325424194336,793.6525344848633,,incorrect_response_after_flip_to_zero_coherence
3,39,control,n/a,No_Flip,n/a,T,left,0.784819399999833,Button_Before_Flip,F,F,True,,133.9428424835205,,correct_response_before_flip_or_control_trial
4,0,delay_0,0.0,6.997346878051758,6.997346878051758,F,,,No_Response,T,T,,6.997346878051758,,,no_response
4,1,control,n/a,No_Flip,n/a,T,right,1.2995436000001064,Button_Before_Flip,F,F,True,,132.94339179992676,,correct_response_before_flip_or_control_trial
4,2,delay_200,200.0,270.88451385498047,70.88451385498047,T,left,1.17652150000049,Button_Before_Flip,T,T,True,270.88451385498047,266.88575744628906,,correct_response_before_flip_or_control_trial
4,3,delay_100,100.0,137.9413604736328,37.94136047363281,T,right,1.4374703000003135,Button_Before_Flip,T,T,True,137.9413604736328,133.9426040649414,,correct_response_before_flip_or_control_trial
4,4,control,n/a,No_Flip,n/a,T,left,1.3116203999998106,Button_Before_Flip,F,F,True,,135.9415054321289,,correct_response_before_flip_or_control_trial
4,5,delay_250,250.0,No_Flip,n/a,F,,,No_Response,T,F,,,,,no_response
4,6,control,n/a,No_Flip,n/a,T,left,0.9173208000001978,Button_Before_Flip,F,F,True,,133.9428424835205,,correct_response_before_flip_or_control_trial
4,7,delay_50,50.0,137.9377841949463,87.93778419494629,T,left,1.3226591000002372,Button_After_Flip,T,T,False,137.9377841949463,271.87609672546387,,incorrect_response_after_flip_to_zero_coherence
4,8,control,n/a,No_Flip,n/a,T,right,1.0526232000001985,Button_Before_Flip,F,F,True,,3.9987564086914062,,correct_response_before_flip_or_control_trial
4,9,control,n/a,No_Flip,n/a,T,right,1.3031585999997333,Button_Before_Flip,F,F,True,,132.94553756713867,,correct_response_before_flip_or_control_trial
4,10,control,n/a,No_Flip,n/a,T,left,1.4338748999998645,Button_Before_Flip,F,F,True,,1174.4637489318848,,correct_response_before_flip_or_control_trial
4,11,delay_150,150.0,No_Flip,n/a,F,,,No_Response,F,F,,,,,no_response
4,12,delay_50,50.0,136.93809509277344,86.93809509277344,T,left,0.9192897000002632,Button_After_Flip,T,T,False,136.93809509277344,268.8772678375244,,incorrect_response_after_flip_to_zero_coherence
4,13,control,n/a,No_Flip,n/a,F,,,No_Response,F,F,,,,,no_response
4,14,delay_50,50.0,No_Flip,n/a,F,,,No_Response,F,F,,,,,no_response
4,15,delay_100,100.0,133.93926620483398,33.939266204833984,F,,,No_Response,T,T,,133.93926620483398,,,no_response
4,16,delay_0,0.0,6.997108459472656,6.997108459472656,T,right,1.3120178999997734,Button_After_Flip,T,T,False,6.997108459472656,138.9365196228027,,incorrect_response_after_flip_to_zero_coherence
4,17,control,n/a,No_Flip,n/a,F,,,No_Response,F,F,,,,,no_response
4,18,control,n/a,No_Flip,n/a,F,,,No_Response,F,F,,,,,no_response
4,19,control,n/a,No_Flip,n/a,T,left,0.9128444999996644,Button_Before_Flip,F,F,True,,264.8794651031494,,correct_response_before_flip_or_control_trial
4,20,control,n/a,No_Flip,n/a,T,right,1.4262076999993951,Button_Before_Flip,F,F,True,,133.93831253051758,,correct_response_before_flip_or_control_trial
4,21,control,n/a,No_Flip,n/a,T,left,1.0337429999999586,Button_Before_Flip,F,F,True,,3.002405166625977,,correct_response_before_flip_or_control_trial
4,22,delay_50,50.0,No_Flip,n/a,F,,,No_Response,F,F,,,,,no_response
4,23,delay_200,200.0,No_Flip,n/a,F,,,No_Response,F,F,,,,,no_response
4,24,delay_150,150.0,270.87855339050293,120.87855339050292,F,,,No_Response,T,T,,270.87855339050293,,,no_response
4,25,control,n/a,No_Flip,n/a,F,,,No_Response,F,F,,,,,no_response
4,26,delay_150,150.0,265.8789157867432,115.87891578674316,T,left,1.0393303999999262,Button_Before_Flip,T,F,True,265.8789157867432,132.93933868408203,,correct_response_before_flip_or_control_trial
4,27,control,n/a,No_Flip,n/a,T,right,1.4274716999998418,Button_Before_Flip,F,F,True,,265.87843894958496,,correct_response_before_flip_or_control_trial
4,28,control,n/a,No_Flip,n/a,F,,,No_Response,F,F,,,,,no_response
4,29,delay_250,250.0,267.8790092468262,17.879009246826172,T,left,0.9120733999998264,Button_Before_Flip,T,T,True,267.8790092468262,264.8789882659912,,correct_response_before_flip_or_control_trial
4,30,control,n/a,No_Flip,n/a,T,left,1.3249189999996815,Button_Before_Flip,F,F,True,,265.87867736816406,,correct_response_before_flip_or_control_trial
4,31,delay_250,250.0,268.8770294189453,18.877029418945312,T,left,1.3138176000002204,Button_Before_Flip,T,F,True,268.8770294189453,134.93776321411133,,correct_response_before_flip_or_control_trial
4,32,control,n/a,No_Flip,n/a,T,left,1.4214069999998171,Button_Before_Flip,F,F,True,,132.93957710266113,,correct_response_before_flip_or_control_trial
4,33,control,n/a,No_Flip,n/a,T,left,1.184058100000584,Button_Before_Flip,F,F,True,,132.93886184692383,,correct_response_before_flip_or_control_trial
4,34,delay_200,200.0,No_Flip,n/a,T,left,0.7857930000000124,Button_Before_Flip,T,F,True,,3.9985179901123047,,correct_response_before_flip_or_control_trial
4,35,delay_0,0.0,6.997108459472656,6.997108459472656,T,left,0.9279285000002346,Button_After_Flip,T,T,False,6.997108459472656,137.93706893920898,,incorrect_response_after_flip_to_zero_coherence
4,36,delay_0,0.0,6.997108459472656,6.997108459472656,F,,,No_Response,T,T,,6.997108459472656,,,no_response
4,37,control,n/a,No_Flip,n/a,T,left,1.432522500000232,Button_Before_Flip,F,F,True,,135.93792915344238,,correct_response_before_flip_or_control_trial
4,38,control,n/a,No_Flip,n/a,T,right,1.3039882000002765,Button_Before_Flip,F,F,True,,131.93988800048828,,correct_response_before_flip_or_control_trial
4,39,delay_100,100.0,No_Flip,n/a,F,,,No_Response,F,F,,,,,no_response
5,0,control,n/a,No_Flip,n/a,T,right,1.3190560000002731,Button_Before_Flip,F,F,True,,1318.3958530426023,,correct_response_before_flip_or_control_trial
5,1,control,n/a,No_Flip,n/a,T,left,0.9113563999999316,Button_Before_Flip,F,F,True,,910.5818271636964,,correct_response_before_flip_or_control_trial
5,2,control,n/a,No_Flip,n/a,T,left,1.0334503999993103,Button_Before_Flip,F,F,True,,1033.524990081787,,correct_response_before_flip_or_control_trial
5,3,delay_200,200.0,263.87858390808105,63.878583908081055,T,left,1.3020348999998532,Button_After_Flip,T,T,False,263.87858390808105,1301.402568817139,,incorrect_response_after_flip_to_zero_coherence
5,4,control,n/a,No_Flip,n/a,T,left,1.3146694999995816,Button_Before_Flip,F,F,True,,1314.5546913146973,,correct_response_before_flip_or_control_trial
5,5,delay_250,250.0,267.87805557250977,17.878055572509766,F,,,No_Response,T,T,,267.87805557250977,,,no_response
5,6,delay_200,200.0,No_Flip,n/a,F,,,No_Response,F,F,,,,,no_response
5,7,delay_50,50.0,135.9405517578125,85.9405517578125,T,left,0.9056601000002048,Button_Before_Flip,T,T,True,135.9405517578125,132.93933868408203,,correct_response_before_flip_or_control_trial
5,8,control,n/a,No_Flip,n/a,T,left,1.190768499999649,Button_Before_Flip,F,F,True,,4.001617431640625,,correct_response_before_flip_or_control_trial
5,9,delay_250,250.0,No_Flip,n/a,T,right,1.1555805999996664,Button_Before_Flip,T,F,True,,3.000497817993164,,correct_response_before_flip_or_control_trial
5,10,control,n/a,No_Flip,n/a,T,right,1.0467578999996476,Button_Before_Flip,F,F,True,,4.00090217590332,,correct_response_before_flip_or_control_trial
5,11,delay_200,200.0,No_Flip,n/a,F,,,No_Response,F,F,,,,,no_response
5,12,delay_0,0.0,7.999420166015625,7.999420166015625,T,left,1.1755413999999291,Button_Before_Flip,T,T,True,7.999420166015625,4.001379013061523,,correct_response_before_flip_or_control_trial
5,13,delay_150,150.0,276.8735885620117,126.87358856201172,T,left,1.440077399999609,Button_Before_Flip,T,F,True,276.8735885620117,140.93589782714844,,correct_response_before_flip_or_control_trial
5,14,delay_50,50.0,No_Flip,n/a,F,,,No_Response,F,F,,,,,no_response
5,15,control,n/a,No_Flip,n/a,T,left,1.1722186999995756,Button_Before_Flip,F,F,True,,132.93957710266113,,correct_response_before_flip_or_control_trial
5,16,control,n/a,No_Flip,n/a,T,left,1.07358000000022,Button_Before_Flip,F,F,True,,3.999471664428711,,correct_response_before_flip_or_control_trial
5,17,control,n/a,No_Flip,n/a,F,,,No_Response,F,F,,,,,no_response
5,18,control,n/a,No_Flip,n/a,T,left,0.9438131999995676,Button_Before_Flip,F,F,True,,138.93508911132812,,correct_response_before_flip_or_control_trial
5,19,delay_50,50.0,144.93131637573242,94.93131637573242,T,left,0.9575512999999772,Button_Before_Flip,T,T,True,144.93131637573242,140.93470573425293,,correct_response_before_flip_or_control_trial
5,20,delay_0,0.0,No_Flip,n/a,F,,,No_Response,F,F,,,,,no_response
5,21,delay_0,0.0,No_Flip,n/a,F,,,No_Response,F,F,,,,,no_response
5,22,control,n/a,No_Flip,n/a,T,left,1.2804525999999896,Button_Before_Flip,F,F,True,,130.93900680541992,,correct_response_before_flip_or_control_trial
5,23,control,n/a,No_Flip,n/a,T,left,1.181456100000105,Button_Before_Flip,F,F,True,,268.873929977417,,correct_response_before_flip_or_control_trial
5,24,delay_250,250.0,267.87495613098145,17.874956130981445,T,right,1.2016014999999245,Button_Before_Flip,T,F,True,267.87495613098145,133.93735885620117,,correct_response_before_flip_or_control_trial
5,25,delay_100,100.0,134.93967056274414,34.93967056274414,T,left,1.1747369000004255,Button_After_Flip,T,T,False,134.93967056274414,266.8752670288086,,incorrect_response_after_flip_to_zero_coherence
5,26,control,n/a,No_Flip,n/a,T,right,1.4584609000003184,Button_Before_Flip,F,F,True,,132.93790817260742,,correct_response_before_flip_or_control_trial
5,27,control,n/a,No_Flip,n/a,F,,,No_Response,F,F,,,,,no_response
5,28,control,n/a,No_Flip,n/a,T,left,0.921550600000046,Button_Before_Flip,F,F,True,,133.93735885620117,,correct_response_before_flip_or_control_trial
5,29,delay_150,150.0,266.8755054473877,116.8755054473877,T,left,1.43710209999972,Button_Before_Flip,T,F,True,266.8755054473877,132.93766975402832,,correct_response_before_flip_or_control_trial
5,30,control,n/a,No_Flip,n/a,T,left,1.1813505999998597,Button_Before_Flip,F,F,True,,134.93728637695312,,correct_response_before_flip_or_control_trial
5,31,delay_100,100.0,138.93508911132812,38.935089111328125,T,right,1.3052243000001909,Button_Before_Flip,T,T,True,138.93508911132812,133.93735885620117,,correct_response_before_flip_or_control_trial
5,32,delay_100,100.0,136.93904876708984,36.93904876708984,T,left,1.3000888999995368,Button_Before_Flip,T,T,True,136.93904876708984,132.93766975402832,,correct_response_before_flip_or_control_trial
5,33,control,n/a,No_Flip,n/a,T,right,1.3261781999999585,Button_Before_Flip,F,F,True,,133.93568992614746,,correct_response_before_flip_or_control_trial
5,34,control,n/a,No_Flip,n/a,F,,,No_Response,F,F,,,,,no_response
5,35,control,n/a,No_Flip,n/a,F,,,No_Response,F,F,,,,,no_response
5,36,delay_50,50.0,135.9386444091797,85.93864440917969,T,left,0.9150664999997388,Button_Before_Flip,T,T,True,135.9386444091797,132.93743133544922,,correct_response_before_flip_or_control_trial
5,37,control,n/a,No_Flip,n/a,T,left,1.4315974000001006,Button_Before_Flip,F,F,True,,3.0012130737304688,,correct_response_before_flip_or_control_trial
5,38,delay_150,150.0,266.9076919555664,116.9076919555664,T,right,1.0415578000001915,Button_Before_Flip,T,F,True,266.9076919555664,134.96947288513184,,correct_response_before_flip_or_control_trial
5,39,delay_0,0.0,5.99980354309082,5.99980354309082,T,left,1.041493900000205,Button_After_Flip,T,T,False,5.99980354309082,135.93649864196777,,incorrect_response_after_flip_to_zero_coherence
